Folder: 3flex_adsorption_kinetic

Note: README.md
# 3flex_adsorption_kinetic

File: Ar_87K.txt
Hao Tb-In-BTC-eed aceton Ar 87K 04-25-15 (2) - Adsorption		Hao Tb-In-BTC-eed aceton Ar 87K 04-25-15 (2) - Desorption
Relative Pressure (p/p°)	Quantity Adsorbed (cm_/g STP)	Relative Pressure (p/p°)	Quantity Adsorbed (cm_/g STP)
6.5678E-06	9.30547	0.99307	135.548
1.61197E-05	18.6181	0.979046	135.457
2.65292E-05	27.9344	0.930247	135.593
4.82578E-05	46.605	0.879861	135.765
7.11833E-05	65.2186	0.831487	135.98
0.000103092	83.5214	0.781638	136.159
0.00019937	101.045	0.731483	136.361
0.001051252	116.583	0.68115	136.566
0.002885543	120.735	0.631271	136.723
0.005175824	122.693	0.581436	136.834
0.007169133	123.72	0.530882	136.863
0.008692306	124.303	0.481351	136.91
0.009864071	124.685	0.43124	136.891
0.0119549	125.224	0.380891	136.728
0.0138433	125.668	0.330931	136.508
0.0149636	125.91	0.280815	136.217
0.0169412	126.236	0.230967	135.777
0.0188957	126.553	0.181032	135.043
0.0199388	126.709	0.133288	133.975
0.0295063	127.737	0.0983624	132.882
0.0396091	128.57	0.0772848	132.069
0.056517	129.58	0.0602705	131.229
0.0600407	129.798	0.0448301	130.338
0.0801017	130.685	0.0347454	129.535
0.100006	131.378	0.026282	128.714
0.119965	132.01	0.0198782	127.92
0.139756	132.506	0.009492665	125.762
0.159678	132.977	0.008057605	125.318
0.179576	133.406	0.00648994	124.679
0.199589	133.783	0.005517864	124.183
0.249283	134.286	0.00467976	123.668
0.299308	134.708	0.004095601	123.243
0.349345	135.06	0.003638953	122.856
0.399402	135.306	0.003225738	122.449
0.449284	135.393	0.002876047	122.054
0.518595	135.422	0.00259309	121.689
0.568646	135.487	0.002340123	121.32
0.599128	135.464	0.002139856	120.987
0.668275	135.454	0.001963796	120.661
0.718469	135.426	0.001801849	120.322
0.768588	135.427	0.001677154	120.032
0.818492	135.383	0.001544438	119.693
0.868623	135.299	0.001435814	119.383
0.918264	135.29	0.001339358	119.084
0.968309	135.314	0.001253359	118.787
0.99307	135.548	0.001119911	118.264